aX,aY,aZ,gX,gY,gZ
-0.439,1.394,1.384,-6.531,-17.273,-62.561
-0.559,1.686,1.450,4.639,38.513,-75.073
-0.635,1.658,1.355,-3.967,78.308,-86.182
-0.713,0.942,0.912,-95.093,122.253,-135.376
-0.647,0.472,0.625,-256.653,51.392,-188.904
-0.456,-0.287,0.171,-303.101,-13.733,-205.811
-0.205,-1.297,0.327,-212.830,-116.821,-244.629
0.001,-1.824,0.766,71.777,-156.128,-238.281
0.275,-2.243,1.675,195.190,-147.034,-201.050
0.344,-2.229,1.867,235.657,-90.576,-130.676
0.464,-1.919,1.861,179.321,-66.833,-99.365
0.403,-1.664,1.728,55.176,-27.283,-23.315
0.060,-1.223,1.263,21.240,1.831,8.362
-0.079,-1.073,1.042,11.902,47.546,35.278
-0.218,-0.792,0.852,16.907,53.162,36.194
-0.223,-0.630,0.841,10.376,42.969,29.846
-0.200,-0.629,0.827,-36.987,23.071,31.799
-0.138,-0.679,0.812,-63.110,10.681,38.574
-0.111,-0.714,0.821,-85.937,-9.033,56.946
-0.024,-0.625,0.912,-79.895,-12.573,70.374
-0.032,-0.496,0.943,-47.363,0.854,99.121
-0.075,-0.269,0.922,-28.381,15.564,105.957
-0.062,-0.137,0.846,-0.732,34.180,107.178
-0.043,-0.049,0.831,3.540,31.921,106.201
-0.017,0.121,0.894,3.174,14.648,107.910
-0.005,0.190,0.952,-0.122,6.165,110.107
-0.030,0.343,1.017,-12.390,-0.916,112.488
-0.075,0.417,1.013,-17.578,2.625,108.887
-0.142,0.491,0.965,-22.156,17.395,89.905
-0.149,0.516,0.935,-23.682,21.423,78.552
-0.147,0.532,0.927,-22.217,15.991,62.195
-0.131,0.523,0.961,-15.686,0.854,49.500
-0.099,0.508,1.034,-12.146,-2.808,44.983
-0.091,0.510,1.049,-0.916,6.897,36.926
-0.096,0.481,1.024,6.226,15.320,32.166
-0.106,0.452,0.999,15.442,22.644,21.301
-0.103,0.373,0.971,15.747,20.386,15.625
-0.079,0.343,0.979,11.047,8.240,7.507
-0.045,0.282,1.004,7.874,2.991,4.883
-0.028,0.243,1.008,2.563,-2.502,-2.686
0.028,0.150,1.024,0.366,-4.578,-5.859
0.054,0.117,1.040,-4.883,-5.798,-5.188
0.068,0.090,1.055,-7.263,-2.686,-2.625
0.043,0.079,0.998,-10.437,7.446,0.732
0.034,0.070,0.963,-8.484,12.024,0.061
0.038,0.041,0.925,-5.493,10.193,-1.465
0.054,0.025,0.934,-0.244,1.831,-4.578
0.098,0.008,0.995,0.793,-1.282,-4.822
0.107,0.013,1.022,1.465,0.854,-2.441
0.098,0.025,1.015,2.197,4.883,-1.404
0.069,0.024,0.966,3.784,9.705,0.122
0.062,0.017,0.955,3.845,8.545,0.305
0.067,0.008,0.958,0.366,0.916,0.305
0.078,-0.002,0.990,-1.465,-2.441,0.977
0.077,0.008,1.007,1.587,-1.404,2.808
0.074,0.016,1.006,4.822,1.831,3.845
0.068,0.023,1.002,7.751,6.653,6.226
0.053,0.029,0.995,6.958,6.897,6.836
0.048,0.036,0.995,3.418,3.113,6.287
0.035,0.048,1.000,1.343,0.854,5.127
0.037,0.040,1.003,-0.854,-1.709,1.709
0.047,0.031,1.008,0.061,-1.343,0.977
0.060,0.031,1.020,0.732,-0.122,2.075
0.053,0.037,1.016,1.343,3.601,2.930
0.043,0.042,0.987,1.221,4.272,1.953
0.044,0.040,0.977,0.366,1.404,-0.122
0.055,0.031,0.982,0.610,-0.366,-0.732
0.063,0.018,1.006,2.625,-0.549,-0.305
0.063,0.010,1.009,4.089,1.709,0.610
0.064,0.016,1.003,4.089,2.014,0.854
0.062,0.024,1.003,1.587,0.854,0.549
0.057,0.029,1.005,-0.549,-0.244,-0.183
0.057,0.029,1.006,-3.357,-2.014,-1.404
0.066,0.021,1.004,-3.540,-1.953,-1.587
0.069,0.017,1.004,-1.404,-0.427,-0.732
0.068,0.018,1.003,1.831,1.892,0.793
0.062,0.025,0.998,2.563,2.563,1.038
0.062,0.025,0.993,1.160,1.892,0.732
0.067,0.022,0.994,0.122,1.099,0.549
0.067,0.026,0.997,-0.244,1.099,0.671
0.060,0.033,0.990,0.000,1.831,0.854
0.053,0.038,0.987,0.671,1.953,0.427
0.050,0.038,0.987,0.977,1.282,-0.488
0.052,0.033,0.988,1.221,-0.610,-1.770
0.064,0.020,0.995,1.526,-0.793,-1.770
0.069,0.015,0.997,2.502,0.671,0.183
0.068,0.015,1.000,2.808,1.587,1.282
0.065,0.017,1.001,2.075,2.319,2.197
0.054,0.028,1.005,1.221,1.892,2.014
0.051,0.031,1.004,-1.648,0.000,0.000
0.060,0.022,1.001,-2.808,-0.977,-0.793
0.063,0.017,0.999,-1.282,-0.366,-0.488
0.063,0.012,0.993,0.854,0.977,-0.061
0.063,0.015,0.992,2.808,2.441,0.488
0.067,0.021,0.995,1.648,1.770,0.549
0.065,0.021,0.995,-0.671,0.305,0.244
0.065,0.021,0.992,-0.488,0.061,0.000
0.068,0.022,0.994,0.732,0.122,0.366
0.065,0.025,1.006,1.099,0.305,0.732
0.063,0.026,1.005,1.160,1.221,0.671
0.064,0.026,0.999,-0.122,0.916,-0.061
0.067,0.026,0.991,-0.671,0.366,-0.305
0.065,0.027,0.991,0.305,0.122,-0.671
0.067,0.018,0.992,0.671,0.061,-0.916
0.073,0.014,0.998,-0.488,-0.610,-0.305
0.074,0.015,1.005,-0.977,-0.427,0.427
0.069,0.016,0.998,-0.366,0.854,0.977
0.064,0.019,0.985,0.305,0.610,0.977
0.063,0.020,0.989,1.709,-0.610,0.549
0.065,0.019,1.003,2.136,-1.038,0.122
0.064,0.016,1.009,1.770,-0.916,0.305
0.065,0.016,1.009,0.549,0.061,0.732
0.065,0.020,1.003,-0.427,0.488,0.977
0.057,0.025,0.991,-1.587,1.099,1.160
0.056,0.026,0.985,0.122,0.549,0.061
0.060,0.027,0.984,0.977,-0.244,-0.488
0.062,0.025,0.994,1.526,-0.977,-0.793
0.070,0.018,1.014,1.038,-0.732,-0.610
0.068,0.018,1.014,-1.343,0.793,0.366

-0.348,1.530,1.257,15.320,-28.564,-7.812
-0.414,1.688,1.341,5.676,7.751,-48.218
-0.528,1.808,1.309,1.953,39.551,-62.073
-0.642,1.722,1.011,-31.677,111.816,-81.116
-0.680,1.506,0.741,-106.140,143.738,-123.779
-0.604,0.653,0.193,-142.883,112.610,-154.114
-0.515,0.144,0.064,-166.321,-41.138,-203.430
-0.236,-1.065,0.471,-125.061,-121.948,-219.177
0.296,-2.265,1.415,39.978,-198.303,-193.970
0.418,-2.236,1.888,124.695,-169.373,-104.187
0.463,-1.732,2.150,101.746,-115.234,-79.163
0.493,-1.754,1.945,7.935,-11.719,-56.946
0.356,-1.687,1.494,-9.888,9.644,-32.776
0.079,-1.158,1.265,-2.869,22.217,13.794
-0.035,-0.919,1.195,-6.409,30.396,29.785
-0.148,-0.671,1.019,-10.986,33.447,27.893
-0.167,-0.634,0.910,-16.113,33.875,20.691
-0.193,-0.621,0.810,-14.893,30.151,17.456
-0.096,-0.641,0.883,-12.878,13.489,16.235
-0.032,-0.639,0.908,-20.813,2.380,25.452
0.019,-0.586,0.906,-42.542,-10.498,59.998
0.009,-0.514,0.888,-21.973,3.418,87.646
0.013,-0.308,0.824,-0.122,17.517,94.543
0.018,-0.185,0.783,26.917,35.522,105.957
-0.031,0.044,0.727,28.992,32.959,111.694
-0.066,0.163,0.746,20.386,6.165,114.563
-0.116,0.347,0.839,13.245,-8.606,110.962
-0.145,0.457,0.917,1.099,-20.691,99.487
-0.158,0.489,0.941,2.747,-11.658,86.975
-0.180,0.566,0.973,9.460,-5.188,82.031
-0.192,0.601,0.986,21.545,5.249,74.219
-0.196,0.655,1.031,22.766,7.812,69.397
-0.186,0.672,1.053,18.616,9.460,58.411
-0.163,0.655,1.071,15.930,11.169,52.490
-0.149,0.574,1.054,15.198,17.334,38.208
-0.135,0.505,1.040,19.653,21.729,21.179
-0.067,0.388,1.050,20.996,19.836,14.648
-0.035,0.351,1.068,16.968,13.245,8.484
0.008,0.276,1.072,11.292,12.268,5.981
0.030,0.231,1.050,-0.732,11.719,-0.610
0.080,0.140,1.010,-5.981,9.338,-2.808
0.110,0.077,1.005,-14.099,2.075,-1.709
0.108,0.062,1.012,-13.733,2.380,3.052
0.091,0.064,0.997,-8.850,6.653,5.066
0.078,0.070,0.973,4.333,15.015,7.263
0.049,0.084,0.940,8.057,15.503,6.653
0.046,0.088,0.941,3.296,6.653,2.319
0.043,0.093,0.955,-6.226,-4.578,-1.831
0.036,0.078,0.963,-6.470,-6.470,-2.991
0.032,0.062,0.962,0.916,-4.456,-4.700
0.041,0.026,0.967,4.944,-3.052,-5.371
0.066,-0.004,0.996,8.728,-3.418,-5.005
0.071,-0.003,1.012,6.775,-4.578,-3.174
0.061,-0.007,1.019,5.920,-3.235,-3.540
0.064,-0.015,1.016,4.944,-0.610,-4.150
0.068,-0.017,1.021,4.944,-0.183,-3.052
0.078,-0.015,1.027,5.676,1.587,-0.977
0.078,-0.007,1.028,6.470,3.662,1.465
0.062,0.022,1.011,6.836,4.761,2.075
0.054,0.027,0.996,5.127,3.479,1.343
0.055,0.025,0.987,3.418,0.793,0.610
0.058,0.020,0.994,2.441,-1.648,0.000
0.069,0.007,1.018,3.235,-3.174,-0.671
0.070,0.005,1.025,4.211,-0.916,0.610
0.060,0.010,1.020,3.906,1.099,1.160
0.054,0.014,1.012,3.052,3.174,1.282
0.048,0.013,0.997,3.052,2.930,0.916
0.048,0.011,0.991,4.395,0.854,0.183
0.050,0.007,0.994,5.066,-0.122,0.061
0.051,0.004,0.999,4.822,-0.854,-0.610
0.055,-0.002,1.010,3.540,-1.343,-0.732
0.055,-0.003,1.018,0.244,-1.282,-0.916
0.058,-0.005,1.016,-0.305,-0.305,-1.099
0.055,-0.003,1.001,0.427,2.075,-1.099
0.053,-0.001,0.993,1.587,2.441,-0.793
0.053,0.001,0.986,1.770,1.831,-0.610
0.055,0.001,0.990,2.258,0.977,-0.610
0.062,0.000,1.004,2.319,0.916,-0.549
0.062,0.001,1.011,1.526,1.892,0.244
0.058,0.003,1.010,0.549,2.747,0.549
0.057,0.001,0.991,-0.977,3.479,0.122
0.059,0.002,0.985,-1.404,2.441,-0.305
0.061,0.009,0.989,-0.732,0.061,-0.916
0.060,0.015,0.991,0.732,-0.366,-1.526
0.059,0.012,0.993,0.610,-0.671,-1.709
0.060,0.005,0.999,-0.061,-1.343,-1.953
0.069,-0.010,1.014,-0.183,-1.221,-1.648
0.068,-0.009,1.017,0.549,0.305,0.427
0.058,0.001,1.004,1.221,1.526,0.916
0.054,0.007,0.992,0.977,1.099,0.061
0.056,0.006,0.992,0.061,-1.404,-1.038
0.060,-0.001,1.000,0.366,-1.770,-1.160
0.060,-0.003,1.002,1.343,-1.160,-1.038
0.061,-0.010,1.003,0.793,-0.854,-0.854
0.062,-0.009,1.007,-0.977,-0.793,-0.122
0.060,-0.004,1.005,-1.160,-0.061,0.122
0.057,0.004,0.991,0.549,1.587,-0.183
0.055,0.008,0.987,2.136,1.648,-0.854
0.057,0.006,0.986,2.014,1.221,-1.526
0.059,0.004,0.988,1.221,0.122,-2.136
0.066,-0.002,0.995,0.549,0.183,-1.892
0.065,-0.002,0.994,-0.610,1.160,-0.916
0.060,-0.002,0.986,-0.854,1.526,-0.854
0.067,-0.013,0.986,-1.465,0.061,-1.160
0.072,-0.013,0.994,0.122,-0.916,0.061
0.063,0.002,1.003,1.953,0.244,0.671
0.057,0.008,1.000,4.028,2.563,0.488
0.055,0.007,0.997,3.296,2.075,-0.061
0.063,-0.004,1.001,1.282,0.366,-1.221
0.068,-0.010,1.003,-0.183,-0.916,-1.160
0.070,-0.013,1.008,-0.366,-1.160,-0.610
0.068,-0.010,1.008,0.977,0.793,0.427
0.063,-0.000,1.001,1.709,1.709,0.732
0.056,0.005,0.999,1.160,0.854,0.549
0.057,0.004,1.001,-0.732,-1.465,-0.549
0.061,-0.007,1.007,-1.465,-1.709,-0.977
0.065,-0.014,1.008,-1.221,-0.793,-0.488
0.065,-0.014,1.003,-0.305,0.122,0.244
0.064,-0.012,0.999,1.526,1.770,0.916

-0.372,1.557,1.295,93.384,52.246,20.081
-0.470,1.793,1.284,109.253,81.726,-15.137
-0.641,2.047,1.158,91.370,89.172,-44.739
-0.740,2.018,1.032,10.132,73.853,-121.033
-0.805,1.365,0.735,-37.781,47.913,-164.185
-0.562,0.176,0.518,-134.155,-24.231,-219.788
-0.423,-0.457,0.513,-168.152,-90.942,-221.619
-0.118,-1.493,0.753,-141.418,-114.258,-208.862
0.016,-1.816,0.944,-33.386,-122.192,-152.527
0.176,-2.141,1.380,12.024,-109.619,-119.568
0.228,-2.068,1.579,34.729,-73.975,-70.435
0.347,-1.870,1.764,17.883,-60.730,-59.692
0.414,-1.800,1.774,-27.466,-26.550,-31.555
0.337,-1.498,1.624,-36.255,4.883,-7.202
0.108,-1.046,1.298,-11.841,79.407,28.137
0.024,-0.851,1.119,8.057,117.126,36.743
-0.039,-0.572,0.792,3.906,115.479,36.133
-0.034,-0.507,0.670,-13.062,81.055,31.982
0.010,-0.460,0.563,-20.020,56.763,29.907
0.041,-0.453,0.571,-21.606,16.541,30.212
0.119,-0.439,0.643,-19.470,2.563,33.997
0.125,-0.316,0.669,-15.442,-16.602,46.143
0.097,-0.243,0.658,-2.686,-23.560,55.237
0.062,-0.149,0.665,3.967,-27.588,57.434
0.044,-0.086,0.703,12.451,-42.664,65.369
0.019,0.053,0.842,15.320,-49.866,66.650
0.022,0.157,1.013,19.592,-58.716,62.561
0.006,0.197,1.083,18.799,-49.377,60.486
-0.055,0.249,1.145,16.357,-39.001,57.129
-0.064,0.254,1.146,12.634,-19.226,47.302
-0.073,0.264,1.147,13.611,-12.939,45.959
-0.085,0.283,1.160,24.170,0.244,45.837
-0.094,0.288,1.171,31.616,9.949,43.823
-0.059,0.250,1.140,35.278,25.635,37.170
-0.040,0.221,1.129,16.357,24.231,35.706
-0.013,0.193,1.119,2.136,19.348,36.194
-0.022,0.180,1.102,-14.893,15.381,35.645
-0.040,0.181,1.060,-12.634,18.921,33.875
-0.051,0.228,1.041,2.258,28.748,28.076
-0.040,0.246,1.028,4.333,29.602,18.433
-0.023,0.247,1.003,0.854,26.672,14.404
-0.014,0.223,0.991,-5.188,19.470,7.507
0.044,0.169,0.975,-5.798,15.686,5.127
0.086,0.149,0.977,-3.601,9.949,4.333
0.083,0.146,0.978,-2.441,10.376,5.493
0.049,0.162,0.986,1.770,14.648,7.080
0.028,0.169,0.991,5.554,14.404,2.563
0.033,0.137,0.996,3.540,11.902,-1.770
0.055,0.109,1.001,-6.897,3.418,-6.409
0.086,0.059,1.005,-11.108,1.648,-6.042
0.097,0.039,0.993,-12.756,6.836,-4.761
0.091,0.011,0.938,-10.193,10.620,-3.967
0.082,-0.011,0.895,-2.563,12.817,-4.944
0.089,-0.018,0.893,-1.831,3.052,-8.362
0.110,-0.038,0.912,-3.784,-2.747,-9.216
0.119,-0.060,0.924,-6.348,-9.399,-7.751
0.137,-0.097,0.951,-6.226,-10.925,-5.676
0.137,-0.085,0.985,-0.793,-10.254,-0.427
0.131,-0.075,0.992,7.690,-4.272,2.747
0.109,-0.049,0.991,9.521,-2.747,4.211
0.095,-0.032,0.992,9.216,-3.845,5.737
0.083,-0.025,1.004,8.667,-4.639,5.737
0.089,-0.029,1.015,6.470,-6.714,7.446
0.088,-0.015,1.036,5.249,-6.348,8.789
0.080,-0.011,1.030,4.761,-1.282,8.362
0.060,-0.006,1.003,5.066,-0.183,7.507
0.052,-0.001,0.997,5.676,-2.747,4.517
0.053,0.002,1.015,5.371,-5.249,0.916
0.065,-0.012,1.032,5.005,-4.700,0.061
0.068,-0.021,1.032,4.395,-3.174,-0.061
0.067,-0.031,1.015,2.502,-0.061,0.671
0.066,-0.030,1.006,2.991,1.953,0.488
0.064,-0.026,0.996,4.333,2.625,0.000
0.063,-0.020,0.997,5.554,3.052,-1.648
0.070,-0.019,1.004,4.089,2.563,-2.747
0.076,-0.022,1.009,-1.221,1.160,-4.333
0.078,-0.038,1.003,-2.808,1.404,-4.944
0.084,-0.060,0.986,-2.258,2.380,-5.859
0.089,-0.063,0.986,0.671,1.160,-4.089
0.094,-0.060,0.996,1.953,1.038,-2.991
0.098,-0.059,1.001,2.441,1.282,-0.305
0.090,-0.043,1.007,1.831,1.221,1.038
0.082,-0.035,1.001,-0.061,1.160,0.671
0.073,-0.034,0.988,-1.038,-0.061,-0.427
0.083,-0.035,1.002,-2.014,-3.662,-1.770
0.088,-0.040,1.009,-0.122,-2.869,-1.404
0.091,-0.048,1.015,1.099,-1.282,-0.488
0.086,-0.047,1.011,2.747,1.709,1.465
0.076,-0.036,1.003,2.563,1.892,1.587
0.079,-0.032,1.008,-0.549,-0.061,0.549
0.085,-0.034,1.012,-4.578,-1.953,-0.488
0.090,-0.043,1.007,-5.554,-2.014,-0.427
0.088,-0.047,0.999,-3.479,-0.305,0.000
0.089,-0.048,0.987,-1.465,0.610,0.488
0.086,-0.040,0.990,1.404,1.526,1.770
0.077,-0.027,0.998,1.038,1.526,1.526
0.078,-0.032,1.000,-2.136,0.671,0.244
0.083,-0.039,0.997,-3.296,0.366,0.061
0.085,-0.033,0.989,-2.747,1.099,0.610
0.080,-0.025,0.983,-1.465,2.258,0.854
0.077,-0.020,0.973,-1.831,1.587,0.854
0.076,-0.020,0.974,-0.549,-0.305,1.221
0.076,-0.020,0.982,1.465,-0.122,0.793
0.081,-0.025,0.991,2.502,-0.244,-0.610
0.086,-0.032,0.995,-2.319,-2.441,-1.343
0.091,-0.045,0.999,-3.540,-2.625,-1.221
0.090,-0.046,0.997,-0.793,-0.854,-0.061
0.084,-0.036,0.997,1.160,0.122,0.610
0.077,-0.023,1.002,3.235,1.221,1.038
0.075,-0.019,1.005,3.052,1.282,0.732
0.076,-0.019,1.005,-0.122,0.305,-0.549
0.080,-0.024,1.002,-3.967,-1.892,-1.160
0.083,-0.030,1.001,-4.272,-2.197,-0.916
0.081,-0.034,0.999,-1.892,-0.549,-0.488
0.085,-0.042,0.990,-0.427,0.000,-0.305
0.089,-0.042,0.993,2.136,0.488,0.732
0.086,-0.038,0.996,3.662,1.526,1.099
0.082,-0.021,0.999,2.197,1.038,0.854
0.078,-0.020,0.995,-0.671,0.122,0.427

-0.281,1.184,1.505,52.734,16.968,7.202
-0.354,1.441,1.543,59.937,50.415,-13.489
-0.564,1.850,1.551,47.729,66.650,-29.602
-0.639,1.997,1.493,-5.249,113.403,-59.814
-0.876,1.823,1.007,-53.528,142.944,-81.787
-0.998,0.931,0.149,-186.157,145.142,-172.974
-0.883,0.437,-0.166,-229.675,-12.512,-273.682
-0.412,-0.890,0.063,-174.316,-113.525,-299.438
0.183,-2.038,1.011,-17.822,-227.905,-267.700
0.292,-2.205,1.419,93.750,-156.799,-169.983
0.241,-1.817,1.704,122.742,-82.947,-133.545
0.165,-1.563,1.592,87.952,4.578,-98.999
0.121,-1.474,1.221,32.227,1.160,-90.698
0.300,-1.594,1.234,-51.575,-53.040,-73.059
0.367,-1.526,1.330,-37.781,-51.086,-34.180
0.292,-1.233,1.358,-21.729,-20.142,-9.094
0.105,-0.911,1.098,-20.081,32.349,30.945
0.021,-0.793,0.946,-32.776,38.818,49.194
-0.029,-0.637,0.781,-36.804,31.860,52.429
-0.029,-0.596,0.777,-36.072,10.498,58.594
-0.031,-0.528,0.840,-30.945,2.014,62.317
-0.018,-0.482,0.878,-14.893,-2.014,72.021
-0.006,-0.351,0.909,-8.545,0.916,77.942
-0.024,-0.259,0.875,-2.686,8.179,86.365
-0.018,-0.228,0.859,2.441,2.075,91.125
-0.012,-0.135,0.874,5.798,-2.930,95.215
-0.025,-0.067,0.906,12.390,-6.592,105.408
-0.072,0.098,0.980,16.785,-5.371,108.582
-0.099,0.176,1.009,25.757,0.977,102.600
-0.104,0.272,1.024,26.367,6.042,93.384
-0.090,0.283,1.002,15.381,10.315,78.369
-0.105,0.285,0.995,6.409,5.554,73.486
-0.144,0.256,0.994,6.775,4.944,68.726
-0.128,0.268,1.012,16.174,8.606,56.091
-0.058,0.295,1.014,20.569,11.658,50.415
-0.023,0.297,1.010,19.958,14.282,44.556
-0.004,0.281,1.024,17.700,15.747,45.044
-0.007,0.270,1.028,10.437,20.264,43.396
-0.007,0.241,0.994,4.150,21.973,39.063
-0.023,0.201,0.948,1.282,19.836,38.879
-0.032,0.176,0.944,-1.282,12.146,35.156
0.007,0.156,0.973,1.160,8.057,30.762
0.051,0.163,0.986,9.155,6.775,23.743
0.103,0.162,0.990,10.254,10.010,23.437
0.099,0.142,0.979,3.174,15.991,23.499
0.070,0.104,0.958,-2.136,15.198,23.071
0.041,0.064,0.958,-8.179,5.554,20.996
0.045,0.054,0.973,-7.202,-0.488,18.616
0.072,0.093,1.024,5.798,-6.470,15.259
0.086,0.110,1.042,17.395,2.747,13.245
0.104,0.117,1.033,16.235,7.629,11.719
0.106,0.103,1.011,3.113,8.484,9.216
0.088,0.065,0.969,-3.662,5.066,9.094
0.069,0.052,0.963,-6.714,-1.099,8.972
0.066,0.024,0.972,-3.174,-2.686,7.812
0.080,0.020,0.987,7.996,-3.540,6.653
0.100,0.031,1.019,13.489,-1.892,6.714
0.084,0.044,1.018,17.517,2.563,6.287
0.072,0.045,1.009,7.385,-0.366,2.441
0.064,0.016,1.000,0.488,-4.761,0.000
0.066,-0.002,1.005,-3.967,-10.620,-2.014
0.077,-0.030,1.014,-1.160,-10.193,-1.770
0.078,-0.038,1.014,6.531,-6.226,-0.244
0.071,-0.050,1.020,8.850,-4.761,-0.122
0.071,-0.051,1.032,8.545,-4.395,-0.854
0.068,-0.047,1.054,6.592,-4.150,-1.587
0.080,-0.063,1.039,1.343,-1.892,-3.296
0.086,-0.070,1.023,-1.526,0.000,-2.014
0.082,-0.073,0.995,-0.977,0.793,-0.732
0.080,-0.073,0.985,1.648,1.465,0.366
0.086,-0.064,0.986,2.014,0.793,0.488
0.088,-0.054,0.990,1.587,0.122,0.427
0.081,-0.043,0.983,1.343,0.610,0.061
0.081,-0.049,0.972,0.183,0.366,-1.404
0.081,-0.066,0.970,0.061,-0.854,-1.404
0.092,-0.063,0.994,1.282,-3.357,-0.427
0.089,-0.060,0.998,3.174,-1.831,1.099
0.076,-0.056,0.994,4.272,-0.793,1.526
0.072,-0.051,0.995,5.676,-0.610,1.770
0.067,-0.047,1.012,6.226,-0.916,0.183
0.075,-0.052,1.021,5.310,-1.343,-0.671
0.079,-0.057,1.025,2.686,-0.854,-1.404
0.079,-0.062,1.021,1.892,0.000,-1.709
0.079,-0.065,1.016,-0.671,0.427,-2.136
0.081,-0.077,1.008,-1.465,0.000,-1.892
0.094,-0.082,1.004,0.488,0.427,-0.854
0.099,-0.079,1.003,3.296,2.197,1.404
0.096,-0.067,0.998,4.456,3.418,2.319
0.088,-0.059,0.995,5.920,5.920,3.540
0.074,-0.046,0.985,5.615,6.348,3.113
0.076,-0.054,0.976,2.075,3.723,0.916
0.084,-0.064,0.977,-1.953,-1.282,0.183
0.092,-0.078,0.989,-1.648,-2.441,1.099
0.089,-0.077,0.996,3.296,-0.793,2.808
0.082,-0.067,1.002,5.188,0.671,2.991
0.078,-0.059,1.003,4.089,1.221,2.014
0.073,-0.055,1.006,2.014,0.488,1.038
0.077,-0.061,1.007,-2.014,-1.099,-0.305
0.084,-0.073,1.009,-2.686,-1.282,-0.366
0.085,-0.075,1.005,-0.916,0.244,0.244
0.086,-0.073,1.003,-0.366,1.831,0.977
0.089,-0.065,0.995,-1.099,2.136,1.221
0.087,-0.062,0.987,-2.441,1.892,1.160
0.083,-0.058,0.978,-2.625,1.465,0.610
0.085,-0.061,0.975,-2.197,0.061,-0.610
0.093,-0.068,0.977,-1.404,-0.366,-0.488
0.095,-0.069,0.981,0.305,-0.427,1.099
0.092,-0.067,0.988,1.160,-0.061,2.014
0.090,-0.063,0.990,2.075,0.366,2.686
0.083,-0.055,0.991,3.235,0.793,2.869
0.078,-0.053,0.992,2.991,0.732,2.258
0.077,-0.053,1.000,0.488,-1.404,0.610
0.075,-0.053,1.008,-1.526,-2.808,0.183
0.076,-0.060,1.007,-1.526,-2.319,0.183
0.074,-0.061,1.004,-0.122,-1.038,1.587
0.072,-0.051,1.004,0.793,-0.244,1.831
0.073,-0.048,0.997,1.038,1.038,0.671
0.074,-0.052,0.991,-0.610,0.122,-1.160
0.083,-0.062,0.990,-1.770,-0.854,-2.075

-0.338,1.209,1.210,94.421,66.833,25.696
-0.382,1.303,1.276,50.537,30.884,-24.536
-0.415,1.488,1.428,26.184,15.991,-56.030
-0.508,1.434,1.378,-19.104,25.635,-108.154
-0.575,1.216,1.244,-87.952,45.044,-164.062
-0.627,0.380,0.812,-138.245,31.921,-196.045
-0.546,-0.051,0.613,-238.831,-41.504,-239.258
-0.284,-0.739,0.436,-253.052,-83.984,-242.432
0.001,-1.723,0.647,-157.410,-123.535,-233.887
0.218,-2.256,0.848,36.255,-77.942,-187.805
0.428,-2.348,1.288,124.207,-43.640,-144.104
0.412,-2.101,1.406,172.791,6.897,-84.778
0.475,-1.811,1.443,122.070,0.732,-74.646
0.502,-1.729,1.399,-14.771,-46.204,-30.029
0.333,-1.469,1.253,-52.185,-50.720,3.601
0.191,-1.267,1.155,-44.250,-12.085,53.955
-0.070,-0.876,0.962,-26.062,11.169,67.444
-0.143,-0.730,0.893,-4.333,29.175,77.515
-0.179,-0.589,0.862,-11.108,12.695,78.857
-0.144,-0.520,0.915,-21.057,1.465,81.177
-0.125,-0.480,0.939,-30.945,-10.254,88.867
-0.095,-0.354,0.951,-24.902,-10.376,92.529
-0.080,-0.285,0.936,-8.728,0.732,98.999
-0.068,-0.134,0.896,-4.700,3.723,102.234
-0.087,-0.041,0.871,-2.197,-2.075,107.788
-0.132,0.115,0.862,-2.686,-7.874,107.178
-0.168,0.234,0.902,0.366,-20.203,101.440
-0.185,0.280,0.936,12.207,-28.687,92.896
-0.197,0.341,1.014,18.799,-30.457,87.158
-0.203,0.348,1.042,28.931,-26.917,75.073
-0.190,0.347,1.087,31.616,-21.057,69.031
-0.170,0.338,1.099,32.043,-10.010,58.472
-0.134,0.324,1.088,29.846,-6.592,53.467
-0.118,0.312,1.069,20.691,0.122,45.227
-0.104,0.269,1.040,15.198,2.808,42.053
-0.101,0.239,1.029,8.301,7.385,34.241
-0.072,0.167,1.000,7.202,10.437,30.273
-0.045,0.089,0.967,7.385,16.907,25.757
-0.026,0.054,0.954,7.996,17.883,23.560
-0.005,0.028,0.951,10.010,13.611,19.348
0.024,0.027,0.982,10.437,9.644,18.738
0.010,0.061,1.023,12.268,7.019,19.592
-0.008,0.068,1.032,14.282,10.254,20.325
-0.014,0.085,1.023,15.503,17.090,19.104
-0.017,0.095,1.013,8.606,15.686,15.747
-0.014,0.093,0.996,2.502,13.977,12.024
-0.004,0.072,0.982,-8.728,6.165,2.380
0.030,0.003,0.961,-12.329,-0.061,-0.732
0.049,-0.021,0.971,-10.925,-9.583,0.854
0.063,-0.037,1.009,-5.188,-9.460,4.028
0.059,-0.028,1.025,10.315,1.099,8.606
0.048,-0.005,1.034,16.235,7.507,9.277
0.039,0.005,1.029,15.869,11.963,7.385
0.026,0.028,1.013,9.583,9.033,5.188
0.023,0.001,0.992,-7.263,-0.244,-0.122
0.028,-0.034,0.981,-13.245,-5.310,-2.319
0.048,-0.090,0.972,-9.155,-5.493,-1.282
0.051,-0.094,0.981,6.287,-1.587,3.357
0.041,-0.070,0.999,12.024,1.221,4.822
0.030,-0.055,0.998,11.963,3.296,4.211
0.012,-0.048,0.987,8.057,1.770,2.136
0.009,-0.071,0.993,1.282,-3.357,-2.563
0.012,-0.092,1.001,0.366,-5.432,-4.578
0.032,-0.119,1.020,1.160,-5.249,-4.089
0.038,-0.118,1.027,2.197,-2.625,-2.197
0.031,-0.112,1.020,1.892,-0.366,-2.014
0.028,-0.112,1.009,-0.122,1.831,-3.052
0.032,-0.112,0.996,-1.099,1.831,-3.235
0.029,-0.112,0.995,0.916,2.930,-2.869
0.028,-0.095,0.996,2.441,3.662,-2.930
0.028,-0.091,0.992,1.404,4.272,-2.930
0.031,-0.099,0.986,0.244,3.601,-3.601
0.043,-0.106,0.978,0.854,2.625,-3.601
0.046,-0.100,0.983,3.601,2.014,-2.258
0.036,-0.092,0.988,4.883,2.869,-1.526
0.028,-0.094,0.986,5.188,2.502,-2.014
0.029,-0.103,0.987,3.418,0.000,-3.174
0.036,-0.113,0.995,-0.732,-5.554,-5.005
0.058,-0.127,1.013,-1.160,-6.470,-4.395
0.052,-0.125,1.010,1.831,-2.869,-0.793
0.045,-0.123,1.002,4.883,1.953,1.099
0.031,-0.118,1.002,4.272,2.014,0.916
0.031,-0.115,1.006,-0.488,-1.282,-1.343
0.039,-0.115,1.020,-3.601,-2.869,-2.136
0.040,-0.114,1.022,-6.470,-1.892,-1.953
0.038,-0.113,1.007,-5.371,0.366,-1.404
0.034,-0.110,0.988,-2.197,3.357,-0.244
0.032,-0.106,0.983,-0.671,2.563,0.427
0.030,-0.097,0.982,-0.061,2.075,0.305
0.030,-0.084,0.988,-0.427,1.343,-0.427
0.030,-0.085,0.985,-2.930,0.549,-1.953
0.037,-0.102,0.977,-4.150,-0.305,-2.380
0.040,-0.114,0.977,-3.174,-1.648,-1.404
0.042,-0.112,0.979,1.709,-0.122,0.244
0.039,-0.101,0.989,3.540,0.977,1.038
0.030,-0.089,1.001,3.418,1.526,0.977
0.029,-0.088,1.004,1.099,0.732,-0.061
0.034,-0.097,0.999,-4.211,-1.404,-2.380
0.035,-0.106,0.993,-5.005,-1.770,-2.502
0.041,-0.112,0.990,-2.563,-1.282,-0.916
0.043,-0.109,0.995,0.854,0.061,0.977
0.038,-0.098,1.000,2.075,1.099,1.526
0.032,-0.090,0.996,3.357,2.869,1.587
0.024,-0.085,0.986,3.052,2.991,0.854
0.024,-0.086,0.987,0.427,0.488,-1.709
0.033,-0.096,0.998,-1.953,-1.343,-2.747
0.046,-0.115,1.003,-5.310,-2.991,-2.747
0.047,-0.117,1.002,-2.136,-0.366,-0.183
0.041,-0.108,0.991,0.488,1.587,0.793
0.036,-0.103,0.989,2.563,2.686,1.343
0.036,-0.095,0.995,1.587,1.587,0.793
0.040,-0.094,1.000,-2.136,-0.610,-0.610
0.044,-0.102,0.998,-2.991,-0.488,-0.671
0.044,-0.105,0.992,-0.916,1.404,0.854
0.037,-0.099,0.985,0.977,2.197,1.648
0.029,-0.090,0.989,2.075,1.709,2.197
0.022,-0.080,0.994,1.343,0.610,1.648
0.029,-0.084,0.999,-2.014,-1.465,-1.526
0.036,-0.095,1.002,-3.967,-2.075,-1.953

-0.307,1.751,1.511,70.557,62.195,13.733
-0.470,1.981,1.609,62.073,114.624,-11.963
-0.716,2.098,1.603,25.513,132.690,-40.710
-0.903,1.474,1.222,-144.531,109.375,-124.695
-0.886,0.850,0.920,-350.342,6.653,-216.858
-0.559,-0.357,0.423,-409.363,-70.618,-239.746
-0.393,-1.012,0.376,-338.318,-214.233,-238.647
0.055,-2.008,1.030,-207.275,-240.479,-221.741
0.230,-2.011,1.606,98.511,-146.301,-161.377
0.277,-1.994,1.667,187.073,-13.123,-127.319
0.397,-1.761,1.567,147.888,0.305,-106.873
0.364,-1.638,1.460,40.649,-23.132,-48.401
0.259,-1.430,1.265,9.216,-22.888,-21.973
0.211,-1.282,1.181,3.967,-3.601,17.822
0.068,-0.907,1.016,11.230,6.653,34.790
-0.082,-0.593,0.916,12.817,15.198,59.875
-0.142,-0.468,0.898,2.319,5.371,68.848
-0.212,-0.342,0.874,-3.357,-0.122,66.895
-0.205,-0.350,0.882,-10.681,-7.629,58.838
-0.118,-0.368,0.945,-10.010,-11.292,57.434
-0.053,-0.293,1.010,2.930,-9.705,65.918
-0.046,-0.247,1.020,14.282,-0.610,72.388
-0.055,-0.168,0.985,37.048,20.081,77.881
-0.053,-0.150,0.960,43.945,23.926,75.806
0.002,-0.070,0.964,40.161,17.639,75.745
0.014,0.004,0.998,33.386,2.014,82.764
-0.043,0.116,1.050,32.654,-0.366,83.984
-0.064,0.166,1.068,26.672,3.113,75.684
-0.061,0.179,1.061,14.526,3.723,64.453
-0.030,0.175,1.026,7.568,3.479,60.059
-0.024,0.163,1.003,1.343,7.080,53.284
-0.012,0.137,0.972,3.052,8.972,50.110
-0.005,0.133,0.969,5.615,7.019,47.119
0.010,0.159,0.994,3.479,4.700,48.279
-0.001,0.168,1.014,-0.183,4.883,48.950
-0.003,0.168,1.011,5.920,14.160,44.434
0.003,0.204,0.995,9.155,19.348,41.626
-0.009,0.216,0.979,8.972,21.362,35.034
-0.016,0.210,0.962,5.554,17.334,30.640
-0.003,0.168,0.981,0.610,7.141,23.926
0.005,0.149,0.997,2.075,2.441,18.433
0.022,0.158,1.033,4.822,2.808,15.991
0.028,0.166,1.036,8.057,8.423,12.146
0.047,0.157,1.009,6.775,11.597,10.681
0.053,0.139,0.986,1.404,14.648,8.972
0.054,0.094,0.941,-0.610,14.709,7.996
0.065,0.079,0.935,-1.160,9.033,5.432
0.086,0.080,0.954,1.221,4.395,4.944
0.081,0.110,0.987,11.475,0.488,5.676
0.071,0.130,0.999,23.682,6.409,6.714
0.023,0.145,0.997,26.550,9.766,5.432
0.002,0.134,0.989,19.836,5.981,-5.432
0.023,0.060,0.988,10.559,-2.563,-13.123
0.056,0.008,1.005,-6.714,-20.325,-22.095
0.109,-0.089,1.040,-9.033,-22.827,-22.461
0.135,-0.154,1.045,-4.822,-16.724,-18.494
0.135,-0.170,1.039,3.357,-5.737,-11.597
0.114,-0.192,1.017,6.714,-1.282,-8.728
0.110,-0.193,1.014,7.080,0.244,-5.310
0.109,-0.173,1.036,5.188,-0.671,-3.845
0.101,-0.155,1.041,1.770,1.099,-1.526
0.093,-0.150,1.032,-0.122,4.761,0.854
0.076,-0.132,1.011,0.305,5.920,1.709
0.074,-0.122,1.003,1.953,6.775,2.136
0.069,-0.101,0.993,2.258,6.226,2.014
0.069,-0.097,0.987,0.488,3.174,1.099
0.069,-0.104,0.989,-0.854,1.282,0.732
0.080,-0.102,1.014,-1.282,-0.549,0.732
0.078,-0.091,1.024,-0.427,-0.122,1.343
0.065,-0.075,1.017,0.122,2.991,1.343
0.065,-0.076,1.005,-2.136,3.418,0.488
0.075,-0.077,0.995,-2.686,2.625,0.244
0.079,-0.076,0.990,-1.953,2.380,-0.305
0.087,-0.076,0.969,-1.770,1.831,-0.244
0.089,-0.073,0.970,-1.770,-0.183,0.244
0.090,-0.072,0.978,-0.183,-0.305,0.427
0.085,-0.069,0.989,0.305,0.244,0.549
0.082,-0.078,0.983,-0.488,1.343,-0.732
0.084,-0.086,0.980,-1.648,0.488,-1.892
0.096,-0.110,0.988,-4.272,-2.380,-3.174
0.104,-0.115,0.996,-1.770,-2.197,-0.671
0.101,-0.103,1.002,0.732,-0.122,1.282
0.080,-0.074,0.997,4.028,4.028,3.540
0.072,-0.065,0.992,3.479,4.333,3.052
0.068,-0.073,0.984,-1.282,1.465,-0.122
0.074,-0.078,0.986,-3.540,-2.686,-1.953
0.087,-0.083,0.998,-2.808,-2.563,-1.709
0.092,-0.085,0.998,0.244,1.465,0.061
0.086,-0.079,0.987,1.526,4.639,1.892
0.073,-0.067,0.971,1.282,4.944,1.648
0.070,-0.066,0.964,-0.427,2.258,-1.221
0.083,-0.077,0.965,-1.709,0.122,-2.502
0.090,-0.083,0.976,-1.160,-1.587,-2.319
0.094,-0.090,0.992,0.305,-0.671,-1.404
0.087,-0.085,0.995,2.380,1.343,0.610
0.082,-0.080,0.996,2.563,1.892,0.916
0.078,-0.074,0.999,1.831,1.526,0.305
0.079,-0.077,0.999,-0.977,-0.122,-2.014
0.094,-0.093,1.000,-2.136,-1.160,-2.808
0.100,-0.103,1.000,-2.014,-1.831,-2.380
0.104,-0.107,1.001,-0.366,-1.099,-1.038
0.091,-0.084,1.009,3.052,1.404,2.014
0.083,-0.072,1.008,1.282,2.075,1.709
0.082,-0.067,0.999,-1.221,1.160,0.549
0.086,-0.073,0.996,-3.906,-0.610,-1.221
0.091,-0.089,0.990,-3.296,-0.732,-1.648
0.093,-0.096,0.990,-0.793,-0.183,-1.099
0.095,-0.097,0.993,-0.366,0.366,0.183
0.096,-0.084,0.995,-0.488,0.671,0.977
0.090,-0.077,0.992,0.305,2.380,1.770
0.078,-0.067,0.980,0.732,2.747,1.404
0.075,-0.067,0.975,-0.183,0.793,-0.427
0.078,-0.073,0.978,-0.916,-2.075,-1.953
0.089,-0.086,0.992,-0.916,-2.808,-1.770
0.091,-0.093,0.997,-0.427,-1.770,-0.427
0.096,-0.097,1.000,-0.183,-0.793,0.244
0.092,-0.085,0.994,0.305,1.160,1.526
0.087,-0.079,0.989,0.366,2.014,1.099
0.080,-0.067,0.981,-0.061,1.343,0.488

-0.449,1.349,1.041,127.380,82.397,69.702
-0.542,1.413,1.055,94.116,48.340,12.817
-0.622,1.506,1.216,51.270,14.954,-28.259
-0.593,1.278,1.232,-55.908,-36.316,-119.873
-0.566,1.030,1.180,-113.770,-73.364,-192.932
-0.498,0.395,1.121,-121.033,-85.632,-223.206
-0.406,0.097,1.164,-127.258,-95.764,-260.071
-0.308,-0.269,1.330,-124.634,-89.050,-263.367
-0.557,-0.524,1.200,-108.093,-20.935,-271.973
-0.743,-0.735,0.999,-107.727,47.241,-317.383
-0.752,-1.576,0.578,-117.493,33.386,-340.698
-0.470,-2.069,0.573,-116.760,-97.168,-306.519
0.322,-2.464,1.306,-74.585,-151.855,-237.549
0.458,-2.066,1.750,56.213,-98.450,-74.646
0.295,-1.776,1.606,112.305,68.054,23.132
-0.076,-1.258,0.941,101.990,100.830,56.213
-0.216,-1.022,0.689,28.809,54.260,108.093
-0.325,-0.648,0.571,-4.089,14.893,117.737
-0.326,-0.548,0.663,-1.892,-31.860,119.751
-0.297,-0.458,0.947,17.334,-34.058,117.554
-0.249,-0.331,1.143,45.227,-10.498,111.145
-0.228,-0.278,1.176,39.734,10.681,110.046
-0.198,-0.172,1.137,27.344,13.855,112.610
-0.203,-0.121,1.092,9.155,19.226,119.202
-0.165,-0.052,1.007,8.179,22.156,118.713
-0.130,0.009,0.984,19.836,21.851,117.737
-0.130,0.176,0.977,28.259,20.569,116.638
-0.147,0.244,0.987,33.447,15.808,103.882
-0.161,0.286,1.006,27.466,9.949,93.567
-0.083,0.290,1.050,8.606,-7.568,77.698
-0.066,0.305,1.085,3.052,-13.977,75.989
-0.071,0.293,1.088,2.197,-7.812,72.144
-0.051,0.271,1.051,-0.549,10.620,62.439
-0.020,0.224,0.974,-3.357,14.587,59.326
-0.010,0.202,0.955,-8.240,12.329,53.833
-0.005,0.182,0.951,-9.399,8.789,51.636
-0.037,0.154,0.951,-6.592,6.653,46.326
-0.042,0.129,0.950,-0.183,6.348,37.354
-0.015,0.078,0.976,2.075,3.113,33.264
0.003,0.061,1.005,2.258,-3.906,27.649
0.028,0.040,1.059,1.831,-4.150,26.306
0.023,0.037,1.071,3.235,2.930,24.292
0.010,0.047,1.060,3.357,8.667,21.790
-0.002,0.037,1.038,-0.305,15.198,17.395
-0.002,0.025,1.003,-3.296,14.893,15.442
0.013,0.006,0.991,-5.798,12.146,11.658
0.021,0.001,0.987,-6.042,8.606,9.277
0.030,-0.012,0.982,-6.226,7.874,8.850
0.034,-0.023,0.979,-4.272,6.470,8.057
0.037,-0.029,0.973,-1.160,6.287,8.179
0.031,-0.018,0.971,7.935,8.423,8.240
0.030,-0.010,0.975,14.038,9.460,5.493
0.034,0.007,0.987,13.733,8.057,3.845
0.039,0.013,0.992,7.751,3.906,1.526
0.049,-0.005,0.992,4.028,2.258,0.793
0.054,-0.020,0.993,1.099,0.610,0.610
0.057,-0.042,0.999,2.136,1.038,1.099
0.055,-0.045,1.006,6.470,3.418,2.747
0.046,-0.029,1.013,9.033,4.822,2.747
0.046,-0.021,1.005,11.414,6.042,1.465
0.040,-0.025,1.002,8.850,3.296,0.854
0.043,-0.058,1.000,6.531,1.038,-0.366
0.051,-0.076,1.007,1.343,-4.639,-2.380
0.070,-0.098,1.026,-0.427,-6.042,-2.808
0.076,-0.102,1.028,0.427,-4.211,-1.465
0.064,-0.094,1.014,2.686,-1.404,-0.305
0.057,-0.091,1.005,5.188,2.441,0.305
0.054,-0.082,1.007,4.089,2.197,-0.061
0.055,-0.078,1.011,-1.038,0.427,-1.648
0.058,-0.081,1.007,-4.883,0.061,-3.052
0.056,-0.104,0.990,-4.272,0.671,-3.235
0.064,-0.117,0.987,-0.610,1.282,-3.296
0.075,-0.132,0.995,1.099,1.587,-2.502
0.078,-0.136,1.002,2.747,2.686,-0.549
0.083,-0.119,1.007,2.502,3.296,0.732
0.075,-0.110,0.999,1.465,5.737,3.113
0.061,-0.094,0.983,1.404,6.104,3.662
0.060,-0.070,0.982,1.038,4.395,3.479
0.054,-0.065,0.977,2.747,3.967,2.380
0.041,-0.070,0.966,4.272,3.601,1.282
0.046,-0.072,0.976,3.235,-0.244,-1.099
0.057,-0.085,1.001,0.854,-1.953,-1.892
0.059,-0.099,1.003,-0.732,-1.587,-2.258
0.063,-0.115,0.998,0.366,-0.610,-1.953
0.068,-0.117,1.006,1.648,0.366,-0.977
0.068,-0.119,1.004,0.427,0.244,-0.244
0.066,-0.114,0.998,0.183,-0.183,0.244
0.065,-0.109,1.000,1.404,0.366,1.099
0.063,-0.104,1.001,2.319,1.465,1.343
0.063,-0.099,1.000,3.235,2.747,1.770
0.058,-0.084,0.995,0.854,2.319,1.343
0.052,-0.091,0.988,-0.793,1.831,0.610
0.058,-0.100,0.985,-2.869,0.061,-0.610
0.067,-0.113,0.987,-2.808,-0.488,-0.427
0.072,-0.112,0.990,-1.221,-0.488,-0.061
0.075,-0.108,0.999,-0.244,-0.183,0.549
0.071,-0.100,0.999,1.038,1.282,1.160
0.068,-0.096,0.996,0.488,1.892,1.221
0.059,-0.093,0.990,0.488,1.953,0.916
0.064,-0.089,0.989,0.610,1.160,-0.122
0.066,-0.091,0.990,0.488,0.793,0.183
0.065,-0.092,0.989,0.244,0.366,0.854
0.067,-0.091,0.984,-0.183,0.244,0.977
0.067,-0.091,0.983,0.061,0.488,0.671
0.066,-0.091,0.987,0.549,0.488,0.122
0.069,-0.101,0.986,-1.160,0.061,-0.488
0.068,-0.111,0.984,-0.793,0.183,-0.305
0.073,-0.114,0.986,0.488,0.122,-0.061
0.070,-0.114,0.992,1.892,0.488,0.916
0.066,-0.114,1.000,1.709,0.793,1.099
0.065,-0.111,1.004,1.343,0.916,1.526
0.063,-0.097,1.005,0.854,0.854,1.526
0.061,-0.091,1.002,-1.160,0.671,1.465
0.059,-0.082,0.999,-2.075,0.610,0.977
0.059,-0.082,0.986,-2.197,1.038,-0.366
0.062,-0.084,0.981,-0.671,0.916,-0.549
0.059,-0.087,0.980,0.122,0.854,-0.671
0.062,-0.089,0.983,0.549,0.305,-1.465
0.071,-0.094,0.987,-0.671,-0.549,-1.526

-0.554,1.723,1.391,197.144,36.621,147.644
-0.862,2.173,1.597,218.384,118.896,125.549
-1.312,2.649,2.029,123.962,144.958,33.142
-1.177,1.325,1.279,-248.230,98.328,-213.562
-0.965,0.397,0.826,-411.987,23.621,-289.856
-0.454,-1.402,0.430,-509.399,-182.129,-350.647
0.032,-2.305,0.727,-339.478,-318.359,-345.276
0.844,-2.665,1.735,-161.804,-277.893,-288.330
1.014,-2.464,2.020,213.135,25.574,-128.723
0.711,-1.630,2.000,296.997,164.490,-80.872
0.430,-1.232,1.687,289.185,218.079,-63.477
0.122,-1.246,0.713,107.300,136.963,-37.781
0.154,-1.451,0.410,6.287,71.350,-9.521
0.334,-1.335,0.616,-85.632,-70.068,46.204
0.290,-1.096,0.815,-43.396,-118.103,100.220
0.054,-0.657,1.102,-9.338,-85.022,110.107
-0.025,-0.514,1.121,36.072,-2.991,84.595
-0.115,-0.356,0.904,38.940,23.560,73.486
-0.235,-0.261,0.743,17.090,25.085,79.102
-0.269,-0.201,0.762,4.272,7.812,83.130
-0.219,-0.119,0.888,-8.545,-18.555,80.139
-0.178,-0.102,0.941,-6.226,-21.240,77.454
-0.135,-0.080,0.992,9.399,-12.268,75.195
-0.103,-0.067,1.003,16.479,-2.991,72.388
-0.061,-0.044,1.010,14.526,-2.502,73.120
-0.055,-0.037,1.010,7.812,-5.066,75.195
-0.045,-0.013,1.020,8.057,-6.104,75.745
-0.034,0.000,1.034,13.794,-4.639,78.674
-0.038,0.055,1.066,14.587,1.831,82.153
-0.052,0.120,1.081,12.268,6.104,80.322
-0.059,0.145,1.075,6.104,13.000,72.998
-0.058,0.154,1.039,1.404,14.587,68.787
-0.047,0.143,1.013,-6.348,15.381,61.096
-0.014,0.100,0.964,-7.629,15.869,58.289
0.021,0.101,0.951,-3.418,17.700,58.899
0.011,0.145,0.961,2.319,18.738,61.340
-0.045,0.237,0.988,15.686,25.146,57.861
-0.062,0.250,0.985,14.099,25.696,41.565
-0.055,0.235,0.984,6.897,19.104,34.241
-0.046,0.228,0.997,-3.235,4.761,22.766
-0.016,0.188,1.007,-3.113,2.808,16.968
0.002,0.166,1.003,2.441,2.319,7.996
0.027,0.130,0.998,5.371,1.709,4.333
0.044,0.110,0.999,6.897,0.183,-2.563
0.081,0.075,1.004,5.310,-0.732,-4.700
0.087,0.068,1.005,-0.061,0.793,-6.104
0.096,0.024,0.978,-2.869,2.319,-7.751
0.111,-0.053,0.944,-4.822,0.610,-10.681
0.123,-0.087,0.939,-3.540,-1.892,-10.803
0.137,-0.109,0.976,3.235,-4.578,-6.714
0.138,-0.094,1.006,11.292,1.099,-2.991
0.135,-0.060,1.036,12.634,5.981,-2.563
0.131,-0.055,1.026,7.019,13.794,-2.380
0.122,-0.065,0.982,2.258,14.648,-1.282
0.111,-0.065,0.965,-1.282,11.902,2.258
0.092,-0.057,0.949,1.343,10.132,3.479
0.088,-0.052,0.955,10.132,6.836,5.066
0.079,-0.023,0.991,13.977,5.432,5.005
0.076,-0.009,1.012,17.822,4.639,1.587
0.083,-0.001,1.034,14.038,3.845,-2.747
0.093,-0.009,1.033,10.071,2.441,-3.662
0.095,-0.020,1.028,1.526,-0.793,-4.395
0.095,-0.054,1.014,-0.671,-2.380,-4.639
0.099,-0.071,1.010,0.061,-4.944,-5.188
0.116,-0.093,1.019,1.648,-5.859,-4.761
0.131,-0.089,1.034,4.944,-5.005,-3.357
0.133,-0.085,1.033,6.348,-0.061,-1.343
0.117,-0.080,1.006,5.798,2.625,-0.610
0.107,-0.078,0.989,2.136,3.784,-1.038
0.095,-0.080,0.973,-0.183,2.258,-2.014
0.100,-0.087,0.972,-4.700,-2.686,-4.211
0.113,-0.110,0.977,-4.944,-4.883,-4.211
0.120,-0.129,0.981,-2.136,-3.601,-3.784
0.124,-0.134,0.985,2.869,0.244,-1.343
0.123,-0.124,1.000,4.028,1.770,0.366
0.114,-0.110,1.001,4.517,4.150,2.014
0.090,-0.088,0.987,3.418,5.005,1.587
0.085,-0.083,0.984,-1.099,3.662,-0.244
0.083,-0.079,0.988,-2.258,2.136,-1.648
0.101,-0.095,0.993,-2.808,-0.244,-4.333
0.108,-0.103,0.995,-1.282,-0.305,-3.357
0.111,-0.101,0.995,1.099,1.282,-2.197
0.106,-0.095,0.992,5.066,5.249,-0.671
0.094,-0.080,0.988,4.639,5.493,-1.221
0.093,-0.080,0.987,-0.610,2.441,-3.967
0.107,-0.094,0.987,-3.174,0.305,-5.249
0.126,-0.111,0.993,-4.822,-2.197,-5.371
0.130,-0.115,0.994,-1.282,-0.305,-2.991
0.124,-0.113,0.987,1.343,1.221,-1.709
0.121,-0.104,0.989,3.967,2.808,-0.244
0.116,-0.081,0.999,3.113,2.563,-0.305
0.113,-0.078,0.998,-1.465,1.526,-1.831
0.117,-0.092,0.990,-3.479,0.793,-2.563
0.128,-0.108,0.979,-4.395,-0.854,-2.808
0.129,-0.111,0.977,-1.221,-0.793,-0.977
0.127,-0.110,0.979,0.366,-0.549,0.061
0.126,-0.104,0.986,2.075,0.061,1.953
0.110,-0.083,0.993,2.380,0.916,2.136
0.101,-0.071,0.994,0.305,1.343,0.305
0.103,-0.075,0.994,-4.639,-1.282,-1.587
0.109,-0.089,0.993,-4.944,-2.014,-2.014
0.111,-0.093,0.990,-1.831,-1.099,-1.526
0.111,-0.099,0.990,-0.549,-0.366,-0.916
0.110,-0.091,0.993,0.244,0.427,0.488
0.107,-0.088,0.990,0.122,1.526,0.061
0.105,-0.083,0.981,-0.305,1.343,-0.427
0.105,-0.083,0.979,-1.404,0.061,-0.916
0.110,-0.086,0.979,-1.648,-0.793,-1.038
0.112,-0.088,0.981,-0.732,-1.404,-0.671
0.110,-0.092,0.983,0.549,-0.977,-0.244
0.106,-0.093,0.986,2.930,0.671,0.244
0.107,-0.092,0.989,2.502,1.038,-0.549
0.114,-0.097,0.995,0.793,0.366,-1.038
0.117,-0.103,0.996,-2.991,-1.404,-1.648
0.127,-0.115,0.996,-3.662,-1.831,-1.404
0.126,-0.116,0.995,-0.610,0.000,0.732
0.117,-0.102,0.989,1.831,1.648,1.892
0.104,-0.079,0.988,3.784,3.052,2.930
0.101,-0.073,0.991,0.610,1.648,1.648

-0.515,1.235,1.463,37.048,16.052,-22.766
-0.582,1.520,1.556,24.475,-4.211,-60.608
-0.682,2.213,1.724,20.203,5.676,-79.102
-0.861,2.207,1.496,-33.081,84.412,-123.413
-0.980,1.701,1.131,-265.747,117.554,-204.712
-0.882,0.672,0.458,-408.508,66.223,-255.249
-0.783,0.265,0.142,-517.395,-97.290,-321.167
-0.529,-0.787,-0.036,-443.665,-159.546,-324.158
-0.112,-2.028,0.778,-126.526,-257.996,-274.109
0.004,-2.353,1.445,190.552,-231.262,-189.453
0.236,-2.285,2.470,278.137,-157.532,-152.344
0.335,-1.967,2.535,226.135,-50.171,-85.754
0.265,-1.287,2.014,124.939,-28.137,-52.307
0.139,-1.158,1.697,-32.776,14.160,-4.944
0.029,-1.012,1.234,-42.175,32.715,23.926
-0.086,-0.675,1.025,-17.395,32.776,37.170
-0.142,-0.535,0.995,26.978,41.199,44.189
-0.178,-0.398,1.030,33.447,43.457,40.833
-0.156,-0.365,1.039,11.414,34.363,33.569
-0.085,-0.344,0.969,-5.981,27.771,34.119
-0.043,-0.359,0.895,-25.452,18.738,43.640
-0.034,-0.335,0.867,-15.991,21.912,56.702
-0.025,-0.281,0.833,-3.967,27.039,62.012
-0.017,-0.258,0.829,21.484,29.968,70.313
0.005,-0.211,0.843,29.724,23.743,74.646
0.027,-0.099,0.932,34.119,3.174,81.238
0.047,-0.045,0.963,34.058,-6.165,80.811
0.065,0.009,0.957,34.546,-5.249,81.787
0.056,0.011,0.942,40.771,-1.160,86.121
0.043,-0.001,0.919,43.884,-1.099,89.050
0.037,0.016,0.908,44.678,-7.690,97.839
-0.019,0.112,0.907,44.800,-14.282,101.868
-0.064,0.163,0.929,45.105,-25.513,95.398
-0.103,0.171,0.998,43.152,-27.161,84.351
-0.054,0.134,1.041,37.231,-23.254,63.110
-0.025,0.134,1.059,29.968,-22.949,62.073
-0.038,0.159,1.066,27.710,-20.386,65.247
-0.058,0.155,1.052,24.963,-4.272,64.026
-0.078,0.134,1.026,24.658,3.235,59.265
-0.079,0.117,1.019,24.048,8.423,50.293
-0.075,0.108,1.033,22.156,5.066,47.546
-0.071,0.116,1.050,20.569,-5.127,44.250
-0.069,0.124,1.089,20.386,-7.202,42.847
-0.073,0.112,1.093,17.700,1.038,36.987
-0.047,0.082,1.070,15.076,8.240,32.532
0.017,0.044,1.027,8.118,18.066,24.902
0.037,0.028,1.008,-1.831,19.287,26.001
0.028,0.016,0.986,-5.188,18.860,28.137
0.004,0.020,0.973,-3.723,18.494,28.748
-0.032,0.021,0.959,0.183,18.188,26.184
-0.031,0.013,0.963,7.751,15.137,18.860
0.003,0.008,0.987,9.705,11.719,15.930
0.019,0.011,1.004,10.254,4.700,12.390
0.048,0.015,1.029,9.277,2.991,11.475
0.055,0.008,1.034,9.033,4.639,12.146
0.037,0.004,1.022,11.902,7.507,13.733
0.023,0.009,1.012,21.606,15.259,15.320
0.003,0.010,0.983,25.391,18.127,14.526
0.001,-0.003,0.969,26.855,17.944,11.353
0.025,-0.025,0.987,26.001,13.916,9.521
0.053,-0.008,1.036,23.193,5.188,3.479
0.069,-0.021,1.042,18.433,3.357,-0.427
0.089,-0.082,1.025,1.404,0.916,-4.700
0.096,-0.110,1.015,-8.667,0.427,-3.845
0.097,-0.151,1.002,-8.362,2.014,-2.869
0.094,-0.163,0.996,-1.526,5.920,-1.282
0.101,-0.166,0.992,1.770,6.653,-0.793
0.108,-0.155,0.997,4.333,6.226,0.977
0.107,-0.121,1.003,4.028,6.226,1.770
0.101,-0.110,1.001,0.732,5.981,1.709
0.082,-0.097,0.987,-1.587,5.005,1.465
0.060,-0.096,0.974,-6.042,1.526,-0.793
0.061,-0.105,0.969,-8.972,-3.967,-4.456
0.079,-0.143,0.972,-8.484,-6.165,-5.066
0.093,-0.161,0.979,-3.174,-6.470,-3.601
0.114,-0.176,0.998,0.244,-4.822,-1.221
0.110,-0.165,1.006,5.737,0.061,4.456
0.077,-0.120,1.008,6.714,2.502,5.554
0.060,-0.103,1.000,2.380,2.625,3.296
0.047,-0.104,0.982,-1.648,0.183,1.282
0.048,-0.117,0.979,-4.822,-4.822,-1.465
0.062,-0.141,0.983,-2.686,-5.493,-1.953
0.078,-0.144,1.002,2.197,-3.906,-0.977
0.079,-0.138,1.005,1.770,-1.038,0.366
0.068,-0.127,0.989,0.244,-0.122,0.549
0.062,-0.127,0.976,-2.380,-1.099,-0.610
0.065,-0.130,0.970,-2.869,-2.747,-1.465
0.068,-0.138,0.977,-1.465,-4.272,-2.136
0.085,-0.152,0.985,-0.244,-4.333,-2.075
0.092,-0.147,0.991,1.831,-3.296,0.366
0.086,-0.126,0.993,3.601,-0.732,1.892
0.074,-0.119,0.982,6.897,4.150,2.991
0.062,-0.095,0.969,6.348,3.784,1.953
0.062,-0.089,0.971,0.366,-0.916,-1.465
0.066,-0.108,0.979,-2.441,-2.808,-2.869
0.071,-0.126,0.979,-1.648,-3.601,-4.456
0.089,-0.145,0.984,-0.061,-3.662,-4.333
0.093,-0.151,0.992,0.793,-3.235,-2.197
0.095,-0.155,1.001,0.549,-2.380,-0.977
0.087,-0.153,0.995,1.343,0.854,0.732
0.083,-0.154,0.991,1.343,1.343,1.587
0.082,-0.151,0.999,1.038,0.488,1.831
0.083,-0.147,1.001,1.892,0.061,2.319
0.078,-0.133,1.002,2.441,0.671,2.869
0.072,-0.123,0.999,2.625,2.014,3.540
0.058,-0.116,0.981,2.197,2.563,3.235
0.055,-0.117,0.972,1.465,1.648,1.526
0.058,-0.123,0.969,1.404,0.427,0.793
0.061,-0.126,0.974,1.465,-1.343,0.000
0.065,-0.130,0.986,1.099,-1.587,-0.183
0.064,-0.134,0.990,-0.916,-2.258,-0.732
0.068,-0.140,0.992,-0.732,-1.770,-0.610
0.069,-0.144,0.991,0.366,-0.977,-0.305
0.069,-0.141,0.990,2.380,0.488,0.183
0.071,-0.138,0.984,2.747,0.916,0.061
0.071,-0.140,0.983,1.953,0.793,-0.488
0.075,-0.141,0.987,1.282,0.122,-0.793
0.079,-0.142,0.992,-0.549,-1.038,-0.732
0.082,-0.139,1.004,-1.343,-0.183,0.183

-0.404,1.343,1.534,105.957,33.997,42.725
-0.542,1.642,1.679,109.253,81.421,-2.747
-0.739,1.986,1.809,62.927,95.459,-44.373
-0.789,1.528,1.458,-137.878,76.477,-134.827
-0.765,1.054,1.184,-359.070,-24.658,-208.069
-0.718,0.402,0.729,-418.152,-93.933,-234.924
-0.792,0.142,0.586,-399.902,-146.973,-296.204
-0.720,-0.653,0.370,-345.825,-123.047,-324.524
-0.567,-1.138,0.400,-157.471,-113.525,-316.162
-0.393,-1.725,0.737,-26.367,-131.836,-288.757
-0.183,-1.841,1.095,200.256,-117.737,-231.445
0.043,-1.796,1.792,241.150,-94.055,-195.862
0.078,-1.654,1.784,180.054,-51.392,-136.292
0.143,-1.592,1.687,71.777,-30.579,-80.139
0.155,-1.424,1.492,34.912,-28.809,-44.739
0.064,-1.129,1.335,13.184,-1.160,14.038
-0.009,-0.957,1.258,27.222,38.025,43.762
-0.130,-0.656,1.080,28.259,51.636,48.828
-0.145,-0.559,0.983,6.042,55.969,52.124
-0.127,-0.498,0.865,-8.362,47.180,54.382
-0.101,-0.494,0.859,-18.250,25.757,62.500
-0.060,-0.405,0.886,-12.207,20.813,69.824
-0.070,-0.270,0.875,7.629,24.414,83.313
-0.066,-0.227,0.861,18.799,27.466,86.853
-0.028,-0.199,0.871,21.057,21.057,87.036
-0.012,-0.183,0.883,20.996,-0.183,90.271
-0.021,-0.135,0.924,20.081,-8.118,93.262
-0.016,-0.099,0.946,17.456,-19.470,97.595
-0.008,-0.045,0.965,18.066,-23.865,100.281
-0.010,-0.012,0.967,22.827,-26.672,105.591
-0.047,0.067,0.982,26.367,-25.024,105.469
-0.068,0.092,0.991,31.982,-18.188,94.299
-0.067,0.077,0.983,32.104,-14.832,87.097
-0.058,0.085,0.981,27.832,-17.151,81.299
-0.058,0.096,0.994,25.513,-19.165,80.139
-0.062,0.087,0.998,22.522,-15.381,74.036
-0.060,0.069,0.986,18.677,-6.165,68.848
-0.066,0.036,0.979,16.846,-4.761,66.467
-0.061,0.036,0.994,14.648,-8.362,61.401
-0.072,0.045,1.030,14.587,-10.254,59.509
-0.072,0.049,1.044,16.357,-8.545,56.580
-0.082,0.048,1.055,18.372,-5.310,55.847
-0.093,0.040,1.051,21.240,4.456,51.575
-0.088,0.022,1.040,20.386,7.507,47.546
-0.062,0.016,1.035,10.254,3.723,40.466
-0.036,-0.016,1.028,2.625,-0.366,39.246
-0.020,-0.039,1.019,-2.747,-3.479,39.917
-0.023,-0.049,1.010,10.315,5.066,46.814
-0.036,-0.037,0.996,18.250,10.254,52.734
-0.063,-0.023,1.001,28.076,18.616,59.692
-0.078,0.003,1.048,27.283,22.400,53.711
-0.051,-0.009,1.069,16.724,28.992,29.297
0.031,-0.034,1.052,9.583,27.649,20.142
0.055,-0.045,1.012,-11.230,19.470,18.066
0.044,-0.052,0.998,-20.691,18.860,21.790
0.016,-0.060,0.966,-16.418,21.362,21.790
0.011,-0.061,0.953,-3.662,22.400,18.494
0.009,-0.031,0.960,0.305,19.531,15.808
0.014,-0.010,0.978,0.000,12.878,10.254
0.020,0.002,0.998,-2.808,10.620,6.958
0.043,-0.038,0.985,-8.606,6.470,0.122
0.053,-0.064,0.978,-10.498,1.709,-2.502
0.073,-0.103,0.981,-8.972,0.732,-2.197
0.069,-0.116,0.983,-0.610,3.296,-0.977
0.065,-0.126,0.978,3.967,5.127,-1.892
0.067,-0.123,0.979,8.057,4.883,-3.967
0.080,-0.113,0.995,6.226,2.991,-5.249
0.092,-0.117,1.001,-1.038,-0.793,-6.531
0.110,-0.130,1.001,-3.601,-0.793,-5.493
0.101,-0.130,0.976,-0.549,5.188,-2.136
0.091,-0.126,0.954,8.728,11.108,-0.549
0.069,-0.124,0.929,12.085,11.169,-0.427
0.068,-0.129,0.933,13.550,5.798,-2.930
0.082,-0.129,0.967,11.902,1.526,-4.700
0.087,-0.132,0.983,5.981,-4.517,-7.996
0.098,-0.161,0.995,1.953,-6.531,-9.094
0.114,-0.191,1.011,-3.052,-8.789,-7.690
0.115,-0.197,1.017,1.038,-5.310,-3.235
0.107,-0.190,1.021,4.761,-1.465,-1.282
0.093,-0.168,1.005,10.132,6.287,1.160
0.088,-0.158,0.995,10.498,8.301,1.282
0.080,-0.133,0.983,7.324,8.545,0.366
0.079,-0.130,0.979,4.456,7.629,-1.221
0.091,-0.163,0.967,-3.357,4.639,-5.493
0.101,-0.179,0.966,-7.629,1.343,-5.737
0.106,-0.192,0.964,-5.676,1.587,-4.150
0.094,-0.188,0.969,1.831,4.578,-0.671
0.090,-0.180,0.978,5.066,5.310,0.549
0.085,-0.157,0.994,4.700,4.883,0.183
0.086,-0.150,0.995,1.465,4.150,-1.709
0.096,-0.158,0.993,-0.244,3.418,-2.136
0.101,-0.166,0.990,-1.343,2.136,-1.526
0.107,-0.179,0.987,-0.488,1.892,-0.916
0.104,-0.179,0.987,1.709,1.282,0.488
0.098,-0.169,0.998,1.770,0.488,0.488
0.102,-0.165,1.005,-1.465,-1.709,-0.488
0.115,-0.163,1.011,-3.113,-1.892,-0.671
0.114,-0.165,0.999,-3.784,0.183,-0.183
0.110,-0.165,0.990,-2.625,1.770,1.099
0.100,-0.163,0.982,-1.709,1.953,1.587
0.095,-0.158,0.985,-0.244,1.038,1.770
0.096,-0.146,0.990,-0.671,0.366,1.221
0.098,-0.145,0.987,-2.930,-0.305,-0.244
0.104,-0.155,0.974,-4.272,-0.549,-1.038
0.106,-0.164,0.966,-5.371,-1.160,-0.671
0.107,-0.172,0.967,-4.456,-1.221,0.244
0.100,-0.162,0.970,-1.587,-0.305,1.831
0.094,-0.155,0.969,0.916,1.282,2.747
0.083,-0.136,0.968,1.953,1.831,2.563
0.083,-0.131,0.970,1.526,1.282,0.610
0.088,-0.136,0.978,0.305,0.366,-0.549
0.093,-0.141,0.983,-2.380,-1.282,-2.319
0.103,-0.155,0.986,-3.052,-1.221,-2.380
0.111,-0.161,0.976,-2.014,0.488,-1.465
0.109,-0.160,0.967,0.916,2.197,0.427
0.102,-0.156,0.957,2.258,2.380,0.916
0.098,-0.154,0.960,2.991,0.732,0.366
0.100,-0.147,0.978,1.892,-0.732,-0.854
0.103,-0.148,0.988,-2.197,-3.174,-2.563

-0.692,2.065,1.557,161.926,44.556,73.547
-1.017,2.461,1.725,148.315,105.286,3.296
-1.231,2.365,1.846,45.471,104.126,-73.669
-0.993,1.244,1.451,-277.954,-12.695,-226.929
-0.812,0.615,1.246,-437.561,-144.958,-299.561
-0.407,-0.510,1.047,-421.265,-184.998,-307.007
-0.241,-1.020,1.077,-255.615,-166.992,-282.898
-0.043,-1.787,1.165,-130.676,-88.196,-254.395
0.071,-2.023,1.160,73.853,84.106,-178.162
0.316,-2.026,1.071,108.032,99.121,-146.851
0.333,-1.644,1.041,77.209,30.518,-98.816
0.302,-1.532,1.006,20.569,-42.786,-54.382
0.261,-1.370,1.014,8.972,-59.326,-29.541
0.196,-1.232,1.050,29.602,-58.167,20.142
0.003,-0.879,1.186,44.373,-45.166,37.415
-0.087,-0.748,1.228,51.331,-13.123,45.349
-0.154,-0.598,1.223,43.091,0.732,42.114
-0.152,-0.548,1.168,9.155,7.568,42.114
-0.153,-0.478,1.013,-8.850,4.211,45.288
-0.151,-0.464,0.956,-20.752,5.310,50.903
-0.138,-0.449,0.900,-14.160,9.521,52.673
-0.086,-0.426,0.895,4.761,17.273,55.176
-0.044,-0.389,0.907,10.742,18.005,57.556
0.009,-0.282,0.936,11.047,12.512,67.566
0.006,-0.229,0.937,0.671,3.540,75.623
-0.042,-0.183,0.908,-2.441,1.770,77.087
-0.049,-0.186,0.896,4.333,0.305,73.730
0.007,-0.142,0.911,13.550,-1.465,72.754
0.018,-0.088,0.930,35.156,-4.211,79.773
-0.017,0.050,0.988,42.542,-3.235,83.374
-0.046,0.107,1.008,45.959,1.648,80.444
-0.087,0.129,1.014,42.358,2.808,74.585
-0.089,0.101,1.024,31.982,0.366,63.354
-0.091,0.097,1.036,28.564,-1.892,60.913
-0.077,0.110,1.058,26.794,-3.601,59.021
-0.064,0.114,1.052,27.222,2.441,56.702
-0.038,0.122,1.025,26.428,6.714,55.237
-0.035,0.129,1.018,20.935,8.179,53.101
-0.055,0.132,1.020,12.085,2.197,48.889
-0.067,0.122,1.031,9.155,-0.183,45.837
-0.071,0.111,1.035,8.789,0.427,39.307
-0.049,0.102,1.040,10.071,3.784,35.645
-0.024,0.101,1.033,11.780,13.184,29.785
0.017,0.102,1.003,11.169,16.479,28.625
0.037,0.088,0.990,2.563,14.465,28.259
0.035,0.073,0.989,-9.766,7.629,29.480
-0.002,0.036,0.995,-11.108,6.531,29.236
-0.021,0.026,0.995,-3.113,7.812,24.536
-0.026,0.017,1.006,1.648,8.606,20.874
-0.011,0.023,1.022,5.066,6.165,13.855
0.028,0.039,1.049,4.456,5.615,11.047
0.055,0.036,1.050,1.526,9.644,8.057
0.088,0.028,1.016,0.244,13.000,8.850
0.082,0.023,0.987,2.808,22.400,13.123
0.041,0.047,0.941,7.446,26.062,14.709
0.005,0.062,0.924,14.282,27.405,9.827
0.012,0.052,0.917,5.005,12.634,-1.648
0.027,0.004,0.926,-1.099,1.770,-6.714
0.043,-0.033,0.944,-3.845,-13.489,-16.846
0.081,-0.113,0.993,-0.977,-16.602,-20.142
0.103,-0.146,1.015,3.113,-17.700,-19.775
0.132,-0.186,1.054,3.174,-16.296,-16.479
0.128,-0.202,1.067,4.578,-7.446,-9.705
0.121,-0.206,1.055,6.165,2.197,-5.310
0.105,-0.201,1.019,4.883,4.028,-3.357
0.098,-0.195,1.009,0.549,3.601,-0.793
0.086,-0.190,0.997,-1.099,2.747,-0.366
0.085,-0.185,0.996,-2.563,0.977,-0.305
0.085,-0.164,1.007,-2.563,0.549,0.122
0.081,-0.148,1.013,-2.136,2.747,0.793
0.071,-0.140,1.000,-2.686,4.578,0.244
0.074,-0.140,0.982,-5.432,4.822,-0.549
0.075,-0.142,0.975,-4.517,4.211,-0.305
0.085,-0.144,0.957,-2.319,4.089,0.244
0.087,-0.135,0.956,2.991,3.906,2.441
0.078,-0.102,0.972,4.639,4.028,2.869
0.076,-0.090,0.978,1.892,2.930,0.793
0.078,-0.096,0.982,-1.526,1.343,-0.366
0.080,-0.108,0.978,-4.700,-0.366,-2.197
0.090,-0.135,0.965,-3.479,-0.244,-2.380
0.092,-0.144,0.962,1.404,0.549,-0.183
0.093,-0.145,0.966,4.028,0.977,1.099
0.092,-0.140,0.973,7.629,1.770,2.563
0.084,-0.113,0.995,7.812,1.587,2.075
0.084,-0.107,1.001,1.892,0.122,-0.732
0.088,-0.122,1.000,-2.136,-0.671,-1.526
0.087,-0.131,0.994,-2.625,0.061,-1.892
0.090,-0.139,0.987,-0.671,1.038,-1.526
0.086,-0.143,0.986,1.160,2.075,-0.366
0.089,-0.139,0.985,0.854,1.160,-0.305
0.096,-0.127,0.990,0.488,0.854,-0.427
0.099,-0.125,0.990,-0.977,1.282,-0.549
0.098,-0.130,0.983,-1.038,1.892,-0.183
0.098,-0.130,0.978,-0.122,2.441,0.000
0.093,-0.128,0.971,0.061,1.953,0.000
0.089,-0.134,0.971,0.000,0.366,-0.366
0.090,-0.138,0.975,0.977,-0.916,-0.793
0.095,-0.145,0.992,1.160,-1.221,-0.977
0.100,-0.144,1.002,-0.488,-1.587,-0.366
0.100,-0.138,1.007,-1.709,-1.160,0.305
0.091,-0.132,0.990,-1.587,1.465,1.465
0.083,-0.128,0.980,-0.366,2.502,1.831
0.074,-0.124,0.972,0.916,1.770,1.099
0.077,-0.126,0.977,-0.061,-1.160,-0.183
0.093,-0.127,0.988,-0.732,-2.075,-0.549
0.097,-0.130,0.986,-0.427,-1.343,0.183
0.095,-0.131,0.986,1.099,0.061,1.038
0.087,-0.128,0.981,1.404,0.488,0.916
0.082,-0.131,0.980,0.916,-0.183,-0.122
0.086,-0.137,0.988,0.671,-1.099,-0.427
0.089,-0.138,0.995,1.282,-0.854,-0.183
0.095,-0.128,0.999,1.221,0.061,0.000
0.095,-0.126,0.995,-0.732,1.648,0.427
0.088,-0.133,0.978,-0.732,1.282,-0.305
0.092,-0.131,0.977,-0.244,0.610,-0.488
0.090,-0.132,0.980,1.343,0.305,0.183
0.092,-0.125,0.980,1.953,0.366,0.488
0.090,-0.122,0.979,1.831,0.854,0.671
0.082,-0.127,0.975,1.526,0.671,-0.305

-0.535,1.412,1.592,127.197,53.955,40.466
-0.596,1.659,1.691,88.379,69.519,-26.917
-0.651,1.927,1.820,11.536,56.396,-60.913
-0.802,1.681,1.568,-200.928,30.762,-120.728
-0.879,1.370,1.329,-326.782,25.085,-191.650
-0.988,0.619,0.755,-348.938,16.052,-234.985
-0.997,0.279,0.411,-353.149,-32.532,-331.299
-0.922,-0.801,-0.121,-315.735,-62.805,-369.019
-0.277,-2.355,0.391,-135.620,-163.696,-372.864
0.207,-2.767,1.126,76.599,-257.568,-239.014
0.526,-2.288,2.339,149.109,-244.812,-161.194
0.473,-1.898,2.459,143.433,-78.064,-86.487
0.309,-1.549,1.889,86.182,7.568,-61.401
-0.022,-1.286,1.198,-10.559,53.711,6.531
-0.077,-1.100,1.061,-27.893,24.353,39.063
-0.055,-0.752,1.061,-17.029,14.282,45.105
-0.071,-0.592,1.062,8.667,19.348,55.847
-0.171,-0.312,0.983,16.052,28.503,59.814
-0.206,-0.180,0.922,15.259,37.842,56.763
-0.188,-0.163,0.905,3.540,28.870,51.575
-0.119,-0.143,0.889,-0.305,22.034,52.185
-0.090,-0.114,0.887,8.301,16.907,57.007
-0.045,-0.076,0.863,18.738,20.203,58.594
0.018,-0.084,0.845,36.255,27.405,62.256
0.037,-0.069,0.859,40.100,16.235,70.740
0.024,-0.009,0.901,38.086,7.996,74.646
0.006,0.027,0.923,34.851,-3.479,76.416
-0.018,0.064,0.955,35.461,-6.897,74.402
-0.011,0.064,0.971,36.804,-13.245,71.350
-0.016,0.031,1.001,37.781,-14.954,72.327
0.006,-0.008,1.047,41.382,-14.282,74.768
0.002,0.031,1.095,45.288,-9.888,75.867
-0.036,0.086,1.153,41.626,-2.319,70.740
-0.023,0.088,1.137,18.066,9.399,57.922
-0.017,0.065,1.069,5.249,10.437,55.420
-0.003,0.046,1.016,-7.507,10.437,52.185
-0.016,0.035,0.997,0.244,13.977,50.598
-0.021,0.000,0.981,4.944,15.015,47.729
-0.007,-0.012,0.988,9.338,10.986,41.260
0.024,-0.009,1.016,9.827,8.850,38.330
0.050,-0.004,1.018,9.277,9.399,33.569
0.063,0.006,1.016,8.606,9.949,32.410
0.070,-0.006,1.003,4.883,9.399,31.921
0.082,-0.017,0.993,-0.916,6.409,32.043
0.071,-0.035,0.977,-0.671,5.859,33.203
0.065,-0.043,0.970,6.470,8.850,33.264
0.049,-0.019,0.969,11.719,10.071,33.447
0.046,0.004,0.968,18.555,10.864,31.372
0.057,0.010,0.972,14.648,5.798,29.419
0.055,0.018,0.997,11.230,3.601,29.297
0.047,0.004,1.005,6.409,2.991,23.926
0.042,-0.034,0.999,5.249,2.319,20.508
0.052,-0.049,1.005,5.615,0.061,16.846
0.062,-0.043,1.010,8.667,0.977,17.517
0.064,-0.042,1.009,10.559,3.235,18.250
0.065,-0.049,0.992,12.512,9.705,17.761
0.067,-0.055,0.982,14.465,13.977,17.334
0.068,-0.058,0.972,15.320,13.855,17.761
0.072,-0.058,0.972,18.127,14.404,18.494
0.078,-0.072,0.972,20.203,14.954,18.311
0.082,-0.073,0.977,23.926,13.245,16.968
0.077,-0.042,0.996,23.621,11.047,16.052
0.078,-0.042,1.011,13.489,6.104,10.010
0.097,-0.060,1.012,5.676,2.747,7.019
0.095,-0.080,1.013,-3.357,0.183,6.714
0.089,-0.084,1.010,2.136,5.127,6.958
0.093,-0.083,1.004,5.981,7.812,6.470
0.090,-0.077,1.005,9.888,9.399,4.639
0.088,-0.070,1.008,8.972,9.033,2.930
0.091,-0.079,1.008,3.357,6.897,-0.244
0.105,-0.098,1.012,1.099,6.042,-1.038
0.127,-0.131,1.007,0.183,7.935,-1.770
0.135,-0.136,0.999,1.587,9.888,-0.305
0.130,-0.138,0.971,2.808,11.169,0.305
0.125,-0.133,0.955,4.578,10.742,0.183
0.116,-0.122,0.942,4.211,8.789,-0.610
0.124,-0.136,0.952,1.160,3.357,-3.479
0.134,-0.152,0.962,-1.282,-0.122,-3.540
0.145,-0.178,0.972,0.122,0.305,-1.953
0.146,-0.182,0.973,7.019,5.188,1.526
0.145,-0.171,0.971,10.803,8.118,2.747
0.141,-0.165,0.969,16.052,11.597,4.150
0.133,-0.159,0.966,17.151,12.268,4.211
0.116,-0.136,0.976,15.686,11.475,2.563
0.115,-0.131,0.979,6.531,6.592,-3.662
0.144,-0.163,0.983,-0.732,2.441,-6.470
0.160,-0.182,0.984,-8.179,-2.563,-6.714
0.165,-0.190,0.979,-6.104,-1.953,-5.188
0.159,-0.189,0.972,1.648,2.441,-3.174
0.156,-0.189,0.967,2.869,3.296,-3.174
0.159,-0.180,0.974,-0.916,0.061,-3.723
0.159,-0.171,0.979,-4.517,-4.028,-3.845
0.153,-0.162,0.993,-5.066,-4.761,-3.601
0.154,-0.162,1.001,-4.944,-4.395,-2.075
0.146,-0.151,1.007,-3.967,-3.662,-0.671
0.128,-0.122,1.005,-1.099,-1.953,-0.061
0.124,-0.117,1.003,-3.052,-2.625,-2.380
0.135,-0.127,0.998,-5.493,-3.845,-3.418
0.143,-0.137,0.997,-8.484,-4.700,-3.662
0.154,-0.153,0.984,-8.667,-3.906,-3.357
0.153,-0.160,0.972,-6.958,-2.197,-2.563
0.152,-0.170,0.948,-5.859,-2.075,-2.319
0.153,-0.171,0.942,-4.211,-3.906,-1.099
0.151,-0.165,0.952,-3.662,-4.578,-0.427
0.147,-0.163,0.968,-2.625,-4.028,0.549
0.142,-0.161,0.972,-0.488,-1.343,1.221
0.133,-0.149,0.974,0.061,-0.488,1.160
0.129,-0.147,0.975,-1.404,-0.610,0.305
0.128,-0.153,0.976,-2.136,-1.343,-0.183
0.132,-0.158,0.978,-1.892,-2.502,-0.488
0.144,-0.164,0.992,-1.099,-1.709,0.549
0.148,-0.158,1.001,-1.099,-0.671,1.343
0.145,-0.153,0.997,0.000,2.075,2.747
0.135,-0.137,0.985,0.610,2.930,2.869
0.134,-0.130,0.980,-0.854,2.502,2.136
0.128,-0.125,0.971,-1.648,1.953,2.014
0.127,-0.127,0.965,-1.526,1.221,0.977
0.132,-0.131,0.964,-2.563,-1.465,-0.305
0.139,-0.135,0.964,-1.770,-2.197,-0.244

-0.784,1.867,1.518,186.401,38.025,105.164
-1.075,2.322,1.802,154.297,50.720,7.080
-1.286,2.490,2.061,36.194,30.273,-82.397
-1.064,1.332,1.655,-273.499,-78.857,-258.301
-0.839,0.600,1.393,-417.603,-209.351,-353.149
-0.374,-0.594,1.273,-408.447,-231.567,-360.962
-0.222,-0.909,1.381,-297.363,-92.957,-315.002
-0.210,-1.221,1.159,-225.098,33.875,-281.433
-0.339,-1.502,0.408,-67.322,188.354,-221.252
-0.305,-1.625,0.255,88.684,115.723,-202.148
0.084,-1.943,0.642,129.578,35.706,-195.435
0.350,-2.002,1.121,85.571,-110.535,-131.958
0.538,-1.723,1.833,38.330,-144.226,-85.144
0.454,-1.520,1.858,6.836,-64.026,-13.062
0.182,-1.057,1.447,26.794,15.442,9.216
-0.092,-0.600,1.003,68.481,93.628,41.199
-0.162,-0.415,0.925,54.626,62.195,53.467
-0.152,-0.179,0.964,33.569,37.048,50.842
-0.074,-0.140,0.979,5.981,11.047,36.133
-0.023,-0.183,0.967,5.493,12.573,27.039
0.053,-0.235,0.929,4.761,13.000,30.212
0.064,-0.231,0.903,-0.427,10.315,41.199
0.084,-0.224,0.859,-1.709,7.019,44.128
0.117,-0.242,0.850,-1.709,-4.395,47.607
0.170,-0.305,0.872,-0.732,-13.000,51.941
0.172,-0.311,0.908,3.967,-26.428,67.261
0.139,-0.254,0.997,12.573,-25.635,82.458
0.091,-0.117,1.049,17.700,-21.545,87.524
0.054,-0.051,1.043,25.085,-11.597,89.111
-0.002,-0.024,0.982,25.146,-9.338,86.365
0.008,-0.040,0.955,19.531,-17.334,83.923
0.018,-0.078,0.961,18.066,-24.109,87.280
-0.003,-0.038,1.032,27.283,-29.114,94.482
-0.022,0.001,1.057,47.058,-11.658,88.989
-0.035,0.060,1.071,54.077,-0.122,81.421
-0.032,0.064,1.063,50.598,12.329,73.242
0.008,0.053,1.039,38.452,11.902,75.928
0.067,0.038,1.014,8.362,7.874,88.013
0.102,0.034,0.995,-9.155,8.728,103.699
0.085,0.083,0.982,-13.977,9.827,110.901
0.033,0.128,0.983,-14.343,16.907,115.784
-0.081,0.218,0.994,-9.094,20.630,112.366
-0.115,0.240,1.016,3.418,24.597,90.454
-0.062,0.228,1.046,4.578,24.353,77.820
-0.028,0.223,1.043,-3.967,20.691,65.674
0.001,0.224,1.007,-7.629,22.156,62.134
0.006,0.214,0.976,-5.493,30.457,52.856
0.017,0.213,0.937,-2.808,32.104,46.082
0.049,0.227,0.980,2.075,29.541,23.865
0.075,0.217,1.004,3.601,26.611,2.991
0.115,0.168,1.020,2.380,25.574,-1.770
0.127,0.149,1.022,0.183,23.682,-2.380
0.132,0.118,1.023,1.709,24.414,-1.526
0.151,0.074,1.021,6.958,26.917,-1.282
0.169,0.065,1.021,6.226,22.156,-0.610
0.200,0.059,1.022,4.395,19.592,0.000
0.210,0.050,1.015,0.793,16.907,1.465
0.214,0.023,0.986,-0.427,16.296,2.380
0.217,0.015,0.970,-0.671,13.672,3.906
0.215,-0.001,0.933,0.000,11.536,4.944
0.195,-0.007,0.915,1.160,6.165,5.981
0.188,-0.007,0.919,0.916,-1.160,2.808
0.184,-0.013,0.935,0.671,-4.517,0.732
0.182,-0.024,0.943,1.587,-7.935,-0.793
0.180,-0.051,0.972,2.380,-8.057,0.061
0.174,-0.052,0.985,3.662,-6.042,2.319
0.162,-0.059,0.985,5.432,-2.319,0.610
0.168,-0.068,0.977,5.676,-2.197,-0.366
0.178,-0.069,0.981,4.944,-3.540,-1.953
0.193,-0.048,1.001,3.296,-3.296,-1.587
0.187,-0.024,1.007,1.892,-1.831,-1.831
0.182,-0.025,0.998,-0.183,1.404,-3.723
0.183,-0.036,0.976,-0.977,1.099,-4.395
0.185,-0.038,0.973,-1.587,-1.709,-4.456
0.202,-0.033,0.980,-1.099,-2.625,-4.822
0.210,-0.029,0.984,-0.122,-2.686,-4.150
0.214,-0.029,0.982,1.160,-0.793,-2.319
0.206,-0.022,0.971,1.648,0.183,-0.793
0.194,-0.019,0.958,2.808,1.221,-0.244
0.179,-0.025,0.939,2.808,-0.366,-1.343
0.178,-0.034,0.942,1.404,-6.714,-4.517
0.198,-0.062,0.979,0.916,-9.338,-5.554
0.208,-0.069,1.000,2.258,-9.460,-3.479
0.209,-0.058,1.021,3.906,-6.226,-1.099
0.198,-0.045,1.014,6.470,2.625,2.258
0.168,-0.024,0.975,5.737,4.639,2.258
0.158,-0.024,0.960,1.404,1.587,-0.977
0.164,-0.047,0.965,-0.427,-1.465,-3.174
0.181,-0.063,0.994,-1.587,-5.615,-5.493
0.188,-0.066,1.005,-0.916,-5.005,-5.737
0.199,-0.073,1.008,0.000,-1.648,-4.517
0.199,-0.072,1.002,0.549,1.648,-0.977
0.185,-0.057,0.980,1.831,3.357,0.427
0.177,-0.039,0.964,3.540,3.540,1.099
0.176,-0.036,0.967,2.747,1.770,0.977
0.182,-0.032,0.980,2.441,-0.916,0.916
0.179,-0.030,0.986,4.883,-0.122,1.282
0.176,-0.026,0.996,4.578,0.183,0.488
0.178,-0.029,1.000,-0.793,-1.465,-2.075
0.187,-0.055,0.997,-3.052,-1.587,-2.991
0.190,-0.062,0.991,-1.770,0.305,-2.136
0.187,-0.059,0.980,0.244,1.892,-0.977
0.185,-0.063,0.973,3.174,4.089,0.244
0.188,-0.064,0.974,1.587,1.648,0.732
0.193,-0.072,0.981,0.671,0.854,0.793
0.192,-0.082,0.978,1.465,1.648,1.160
0.194,-0.086,0.972,1.526,1.282,1.831
0.192,-0.079,0.977,1.099,0.610,2.930
0.187,-0.064,0.991,1.892,1.221,2.869
0.182,-0.055,0.992,2.625,2.136,2.380
0.171,-0.043,0.981,1.587,1.953,1.831
0.175,-0.049,0.979,-1.343,0.000,0.305
0.182,-0.055,0.983,-2.319,-0.854,0.305
0.188,-0.054,0.988,-1.404,-0.122,0.916
0.188,-0.050,0.984,0.000,1.770,1.953
0.186,-0.040,0.973,-0.061,2.136,2.136
0.181,-0.034,0.967,1.343,2.197,1.038
0.180,-0.026,0.961,1.709,1.465,-0.183
0.183,-0.031,0.965,-0.366,-1.526,-2.197

